StartTime: 2016-05-10 20:59:01.990
Time(s)	ax(g)	ay(g)	az(g)	wx(deg/s)	wy(deg/s)	wz(deg/s)	AngleX(deg)	AngleY(deg)	AngleZ(deg)	T(Â°)	hx	hy	hz 
77.932	-0.0215	-0.2651	0.9521	0.1831	2.8687	-0.6714	-15.5676	0.9119	50.3119	46.4900	151	121	63 
77.932	-0.0229	-0.2661	0.9497	0.0000	2.0752	-0.6714	-15.5676	0.9448	50.2679	46.4900	148	118	56 
77.959	-0.0244	-0.2656	0.9458	-0.0610	0.8545	-0.6104	-15.5676	0.9613	50.2350	46.5000	148	118	56 
77.961	-0.0220	-0.2666	0.9497	-0.0610	-0.2441	-0.6714	-15.5731	0.9613	50.1910	46.4900	136	110	58 
77.984	-0.0166	-0.2656	0.9487	-0.0610	-1.3428	-0.6104	-15.5731	0.9503	50.1746	46.4900	148	110	56 
77.987	-0.0161	-0.2632	0.9512	0.0610	-1.2207	-0.3662	-15.5731	0.9393	50.1910	46.4900	148	110	56 
77.987	-0.0146	-0.2612	0.9512	0.1221	-0.6714	-0.2441	-15.5676	0.9283	50.2295	46.4800	157	111	55 
78.064	-0.0127	-0.2607	0.9526	0.0610	0.0000	-0.1221	-15.5621	0.9229	50.2679	46.4800	157	111	55 
78.067	-0.0156	-0.2622	0.9521	-0.0610	0.4883	0.1831	-15.5621	0.9283	50.2350	46.4700	145	115	65 
78.084	-0.0151	-0.2627	0.9541	-0.1831	0.3052	0.3662	-15.5566	0.9338	50.2295	46.4800	153	113	61 
78.085	-0.0171	-0.2646	0.9517	-0.3052	-0.2441	0.4883	-15.5621	0.9338	50.2460	46.4800	153	113	61 
78.085	-0.0166	-0.2656	0.9521	-0.4272	-0.9155	0.5493	-15.5621	0.9229	50.2515	46.4800	153	115	63 
78.085	-0.0122	-0.2666	0.9517	-0.3662	-1.7090	0.4272	-15.5676	0.9064	50.2679	46.5000	151	111	55 
78.086	-0.0112	-0.2656	0.9512	-0.3052	-1.6479	0.3052	-15.5731	0.8899	50.2954	46.5100	151	111	55 
78.086	-0.0083	-0.2656	0.9512	-0.1831	-1.2207	0.1221	-15.5786	0.8679	50.2899	46.4900	147	113	59 
78.086	-0.0093	-0.2666	0.9502	-0.0610	-0.4883	-0.0610	-15.5786	0.8569	50.2789	46.4900	147	113	59 
78.086	-0.0127	-0.2666	0.9521	0.1221	1.0986	-0.3052	-15.5786	0.8624	50.2679	46.4900	155	119	59 
78.114	-0.0142	-0.2681	0.9492	0.1221	1.7090	-0.3662	-15.5786	0.8734	50.2460	46.4900	153	121	59 
78.115	-0.0156	-0.2686	0.9507	0.1221	2.0752	-0.2441	-15.5841	0.8899	50.2185	46.4800	153	121	59 
78.126	-0.0176	-0.2676	0.9517	0.0610	2.0142	-0.3052	-15.5841	0.9119	50.1746	46.4800	151	123	55 
78.127	-0.0215	-0.2686	0.9507	0.0000	1.0376	-0.2441	-15.5896	0.9283	50.1855	46.5000	157	107	51 
78.127	-0.0210	-0.2695	0.9512	0.0610	0.4883	-0.2441	-15.5951	0.9393	50.2460	46.4900	157	107	51 
78.152	-0.0200	-0.2686	0.9526	0.1831	0.0000	-0.1831	-15.5951	0.9448	50.2570	46.4900	147	107	63 
78.165	-0.0190	-0.2671	0.9546	0.2441	-0.3662	-0.1831	-15.5951	0.9448	50.2679	46.4700	147	107	63 
78.172	-0.0176	-0.2642	0.9541	0.2441	-0.7324	-0.0610	-15.5896	0.9393	50.2679	46.4900	150	114	58 
78.172	-0.0166	-0.2627	0.9551	0.2441	-0.7935	-0.0610	-15.5841	0.9338	50.2570	46.4900	148	118	58 
78.173	-0.0151	-0.2607	0.9570	0.1831	-0.7935	-0.0610	-15.5731	0.9229	50.2350	46.4900	148	118	58 
78.284	-0.0151	-0.2593	0.9565	0.0610	-0.6714	0.0610	-15.5621	0.9174	50.2570	46.4800	154	112	58 
78.289	-0.0146	-0.2642	0.9541	-0.3052	-0.1831	0.0610	-15.5621	0.9119	50.2789	46.4800	156	116	54 
78.292	-0.0142	-0.2661	0.9541	-0.2441	0.0610	0.1221	-15.5676	0.9119	50.2954	46.4900	156	116	54 
78.314	-0.0161	-0.2656	0.9546	-0.0610	0.1831	0.0610	-15.5676	0.9119	50.2844	46.4800	154	118	64 
78.316	-0.0161	-0.2646	0.9536	0.0000	0.1831	0.0000	-15.5621	0.9174	50.2734	46.4700	154	118	64 
78.317	-0.0166	-0.2656	0.9512	-0.1221	0.0000	-0.0610	-15.5676	0.9174	50.2899	46.4800	155	115	53 
78.317	-0.0161	-0.2646	0.9507	-0.1831	-0.1221	0.0000	-15.5676	0.9174	50.2844	46.4900	146	118	54 
78.318	-0.0166	-0.2656	0.9502	-0.3052	-0.1831	-0.0610	-15.5731	0.9174	50.2515	46.5000	146	118	54 
78.318	-0.0171	-0.2661	0.9517	-0.2441	-0.3052	0.0000	-15.5731	0.9119	50.2460	46.5000	150	114	64 
78.319	-0.0146	-0.2671	0.9512	-0.1831	-0.5493	0.0000	-15.5786	0.9064	50.2460	46.4800	149	111	57 
78.320	-0.0156	-0.2686	0.9517	-0.2441	-0.6104	0.0000	-15.5841	0.9009	50.2570	46.5000	149	111	57 
78.321	-0.0151	-0.2690	0.9502	-0.2441	-0.7324	0.0610	-15.5896	0.8954	50.2899	46.4900	152	108	62 
78.346	-0.0137	-0.2661	0.9492	-0.1831	-0.8545	-0.0610	-15.5951	0.8844	50.3174	46.4900	152	108	62 
78.348	-0.0112	-0.2666	0.9492	-0.1831	-0.5493	-0.1831	-15.5951	0.8734	50.3339	46.4900	153	113	55 
78.350	-0.0103	-0.2671	0.9492	-0.0610	-0.1221	-0.1221	-15.6006	0.8624	50.3394	46.4800	151	115	53 
78.350	-0.0112	-0.2666	0.9487	0.0000	0.4883	-0.1221	-15.6006	0.8624	50.3394	46.5000	151	115	53 
78.362	-0.0132	-0.2676	0.9507	0.0610	1.0376	-0.1221	-15.6061	0.8734	50.3339	46.4800	156	118	58 
78.363	-0.0161	-0.2661	0.9507	0.1221	1.5259	-0.0610	-15.6061	0.8844	50.3339	46.4800	148	110	64 
78.373	-0.0171	-0.2661	0.9507	0.0610	1.4038	-0.0610	-15.6061	0.9009	50.3284	46.4900	148	110	64 
78.374	-0.0176	-0.2661	0.9526	0.0610	1.0376	-0.1221	-15.6061	0.9119	50.3339	46.4900	150	110	54 
78.399	-0.0161	-0.2651	0.9502	0.0000	0.6104	-0.1221	-15.6006	0.9174	50.3503	46.4800	150	110	54 
78.464	-0.0171	-0.2642	0.9521	-0.0610	-0.1831	-0.0610	-15.6006	0.9229	50.3558	46.4800	151	111	63 
78.466	-0.0161	-0.2646	0.9512	-0.1221	-0.3662	0.0000	-15.6006	0.9174	50.3723	46.4800	147	105	59 
78.484	-0.0176	-0.2637	0.9517	-0.1221	-0.2441	0.0000	-15.6006	0.9174	50.3998	46.4700	147	105	59 
78.484	-0.0181	-0.2651	0.9521	-0.0610	0.1221	0.0000	-15.6006	0.9229	50.4053	46.4900	145	107	59 
78.485	-0.0181	-0.2651	0.9526	-0.0610	0.7935	0.0000	-15.6006	0.9283	50.4053	46.4900	145	109	59 
78.485	-0.0190	-0.2656	0.9512	0.0000	0.8545	0.0000	-15.6006	0.9393	50.3998	46.4900	145	109	59 
78.485	-0.0200	-0.2637	0.9536	-0.0610	0.6104	0.0610	-15.6006	0.9503	50.3998	46.4900	152	116	52 
78.485	-0.0195	-0.2642	0.9497	-0.0610	0.1831	0.1221	-15.6006	0.9558	50.3998	46.5000	152	116	52 
78.486	-0.0190	-0.2661	0.9517	-0.1831	-0.9155	0.2441	-15.6006	0.9503	50.4108	46.4800	156	118	52 
78.486	-0.0166	-0.2651	0.9492	-0.1831	-1.2817	0.3052	-15.6006	0.9448	50.3998	46.4800	146	120	54 
78.511	-0.0156	-0.2661	0.9492	-0.1831	-1.3428	0.4272	-15.6061	0.9338	50.3668	46.5000	146	120	54 
78.523	-0.0146	-0.2646	0.9497	-0.0610	-1.0376	0.5493	-15.6061	0.9229	50.3503	46.4900	148	116	60 
78.523	-0.0142	-0.2632	0.9502	-0.1221	0.1221	0.6104	-15.6006	0.9229	50.3558	46.4800	158	114	66 
78.524	-0.0156	-0.2642	0.9497	-0.1221	0.4272	0.7324	-15.6006	0.9229	50.3778	46.4900	158	114	66 
78.550	-0.0166	-0.2642	0.9502	-0.1221	0.4272	0.7324	-15.6006	0.9283	50.3888	46.4900	149	113	57 
78.561	-0.0171	-0.2661	0.9507	-0.1221	0.0610	0.7324	-15.6006	0.9338	50.3943	46.4900	149	113	57 
78.561	-0.0161	-0.2671	0.9517	-0.3662	-1.6479	0.6714	-15.6061	0.9229	50.3943	46.4900	146	112	56 
78.561	-0.0127	-0.2690	0.9526	-0.4272	-2.4414	0.5493	-15.6116	0.9064	50.4053	46.4900	154	114	64 
78.584	-0.0107	-0.2695	0.9526	-0.3662	-2.6245	0.4272	-15.6226	0.8789	50.4163	46.4800	154	114	64 
78.603	-0.0068	-0.2695	0.9541	-0.1831	-2.1362	0.3052	-15.6226	0.8459	50.4053	46.4700	142	110	58 
78.603	-0.0073	-0.2676	0.9565	0.2441	0.1831	-0.1831	-15.6226	0.8350	50.3998	46.4700	149	115	47 
78.603	-0.0083	-0.2671	0.9570	0.4272	1.4038	-0.4272	-15.6226	0.8350	50.3943	46.4800	149	115	47